pos,corr_resp,trials.thisRepN,trials.thisTrialN,trials.thisN,trials.thisIndex,trials_2.thisRepN,trials_2.thisTrialN,trials_2.thisN,trials_2.thisIndex,Fixation.started,Line1.started,Line2.started,Line3.started,Line4.started,Fixation.stopped,Probe.started,key_resp.started,key_resp.keys,key_resp.corr,key_resp.rt,participant,session,date,expName,psychopyVersion,frameRate,
-50,x,0,0,0,0,,,,,23.27962369984016,24.207508699968457,24.207508699968457,24.207508699968457,24.207508699968457,24.28665110003203,25.21863180003129,25.21863180003129,x,1,0.8599402999971062,833309,001,2022-09-30_11h50.35.106,Motor Sequence Learning,2022.2.2,60.41259381350777,
150,v,0,1,1,1,,,,,26.115995900006965,27.103793599875644,27.103793599875644,27.103793599875644,27.103793599875644,27.13091930001974,28.098996500018984,28.098996500018984,v,1,0.48442719993181527,833309,001,2022-09-30_11h50.35.106,Motor Sequence Learning,2022.2.2,60.41259381350777,
50,c,0,2,2,2,,,,,28.613278199918568,29.612147599924356,29.612147599924356,29.612147599924356,29.612147599924356,29.62839259998873,30.61061459989287,30.61061459989287,c,1,0.598300299840048,833309,001,2022-09-30_11h50.35.106,Motor Sequence Learning,2022.2.2,60.41259381350777,
-150,z,0,3,3,3,,,,,31.2260175999254,32.22491929982789,32.22491929982789,32.22491929982789,32.22491929982789,32.241346899885684,33.22416460001841,33.22416460001841,z,1,0.4409760998096317,833309,001,2022-09-30_11h50.35.106,Motor Sequence Learning,2022.2.2,60.41259381350777,
-50,x,1,0,4,0,,,,,33.68912019999698,34.68808629992418,34.68808629992418,34.68808629992418,34.68808629992418,34.704275199910626,35.685720399953425,35.685720399953425,x,1,0.7701258000452071,833309,001,2022-09-30_11h50.35.106,Motor Sequence Learning,2022.2.2,60.41259381350777,
150,v,1,1,5,1,,,,,36.48465360002592,37.48323979997076,37.48323979997076,37.48323979997076,37.48323979997076,37.49982100003399,38.496658799936995,38.496658799936995,v,1,0.35099299997091293,833309,001,2022-09-30_11h50.35.106,Motor Sequence Learning,2022.2.2,60.41259381350777,
50,c,1,2,6,2,,,,,38.87903289985843,39.86305869999342,39.86305869999342,39.86305869999342,39.86305869999342,39.87927319994196,40.86119049997069,40.86119049997069,c,1,0.5000239000655711,833309,001,2022-09-30_11h50.35.106,Motor Sequence Learning,2022.2.2,60.41259381350777,
-150,z,1,3,7,3,,,,,41.39373250002973,42.39204859989695,42.39204859989695,42.39204859989695,42.39204859989695,42.40873869997449,43.390414600027725,43.390414600027725,z,1,0.23207169980742037,833309,001,2022-09-30_11h50.35.106,Motor Sequence Learning,2022.2.2,60.41259381350777,
-50,x,2,0,8,0,,,,,43.64015739993192,44.63902929984033,44.63902929984033,44.63902929984033,44.63902929984033,44.655139500042424,45.63711309991777,45.63711309991777,x,1,0.2846349000465125,833309,001,2022-09-30_11h50.35.106,Motor Sequence Learning,2022.2.2,60.41259381350777,
150,v,2,1,9,1,,,,,45.95323089999147,46.951105599990115,46.951105599990115,46.951105599990115,46.951105599990115,46.96744739986025,47.951414099894464,47.951414099894464,v,1,0.2986091999337077,833309,001,2022-09-30_11h50.35.106,Motor Sequence Learning,2022.2.2,60.41259381350777,
50,c,2,2,10,2,,,,,48.26668889983557,49.26512119988911,49.26512119988911,49.26512119988911,49.26512119988911,49.26512119988911,50.26313770003617,50.26313770003617,c,1,0.2567753999028355,833309,001,2022-09-30_11h50.35.106,Motor Sequence Learning,2022.2.2,60.41259381350777,
-150,z,2,3,11,3,,,,,50.545903499936685,51.54458749992773,51.54458749992773,51.54458749992773,51.54458749992773,51.54458749992773,52.543624999932945,52.543624999932945,z,1,0.23783749993890524,833309,001,2022-09-30_11h50.35.106,Motor Sequence Learning,2022.2.2,60.41259381350777,
-50,x,3,0,12,0,,,,,52.80981109989807,53.807732299901545,53.807732299901545,53.807732299901545,53.807732299901545,53.82413599989377,54.80608049989678,54.80608049989678,x,1,0.2774135998915881,833309,001,2022-09-30_11h50.35.106,Motor Sequence Learning,2022.2.2,60.41259381350777,
150,v,3,1,13,1,,,,,55.10474319988862,56.104318799916655,56.104318799916655,56.104318799916655,56.104318799916655,56.104318799916655,57.10266519989818,57.10266519989818,v,1,0.21129900007508695,833309,001,2022-09-30_11h50.35.106,Motor Sequence Learning,2022.2.2,60.41259381350777,
50,c,3,2,14,2,,,,,57.335498200031,58.33439849992283,58.33439849992283,58.33439849992283,58.33439849992283,58.351052899844944,59.33271089987829,59.33271089987829,c,1,0.19905229983851314,833309,001,2022-09-30_11h50.35.106,Motor Sequence Learning,2022.2.2,60.41259381350777,
-150,z,3,3,15,3,,,,,59.54988699988462,60.547488200012594,60.547488200012594,60.547488200012594,60.547488200012594,60.563914499944076,61.54567179991864,61.54567179991864,z,1,0.1632103999145329,833309,001,2022-09-30_11h50.35.106,Motor Sequence Learning,2022.2.2,60.41259381350777,
-50,x,4,0,16,0,,,,,61.72854339983314,62.7273854999803,62.7273854999803,62.7273854999803,62.7273854999803,62.7273854999803,63.72583469981328,63.72583469981328,x,1,0.2613355000503361,833309,001,2022-09-30_11h50.35.106,Motor Sequence Learning,2022.2.2,60.41259381350777,
150,v,4,1,17,1,,,,,64.00873879995197,65.00655469996855,65.00655469996855,65.00655469996855,65.00655469996855,65.02307949983515,66.00479299994186,66.00479299994186,v,1,0.29892680002376437,833309,001,2022-09-30_11h50.35.106,Motor Sequence Learning,2022.2.2,60.41259381350777,
50,c,4,2,18,2,,,,,66.32177549996413,67.32030579983257,67.32030579983257,67.32030579983257,67.32030579983257,67.33693480002694,68.31865999987349,68.31865999987349,c,1,0.40769190015271306,833309,001,2022-09-30_11h50.35.106,Motor Sequence Learning,2022.2.2,60.41259381350777,
-150,z,4,3,19,3,,,,,68.75162049988285,69.75076960003935,69.75076960003935,69.75076960003935,69.75076960003935,69.76656299992464,70.74726539989933,70.74726539989933,z,1,0.30353050003759563,833309,001,2022-09-30_11h50.35.106,Motor Sequence Learning,2022.2.2,60.41259381350777,
-50,x,5,0,20,0,,,,,71.07999859983101,72.07973739993758,72.07973739993758,72.07973739993758,72.07973739993758,72.07973739993758,73.07890799990855,73.07890799990855,x,1,0.28430719999596477,833309,001,2022-09-30_11h50.35.106,Motor Sequence Learning,2022.2.2,60.41259381350777,
150,v,5,1,21,1,,,,,73.39418489998206,74.39278729981743,74.39278729981743,74.39278729981743,74.39278729981743,74.40894609992392,75.39094890002161,75.39094890002161,v,1,0.27448019990697503,833309,001,2022-09-30_11h50.35.106,Motor Sequence Learning,2022.2.2,60.41259381350777,
50,c,5,2,22,2,,,,,75.69058149983175,76.68968859990127,76.68968859990127,76.68968859990127,76.68968859990127,76.70568179991096,77.68825629982166,77.68825629982166,c,1,0.5457763001322746,833309,001,2022-09-30_11h50.35.106,Motor Sequence Learning,2022.2.2,60.41259381350777,
-150,z,5,3,23,3,,,,,78.25316249998286,79.25156639982015,79.25156639982015,79.25156639982015,79.25156639982015,79.26817289995961,80.25020689982921,80.25020689982921,z,1,0.2965381001122296,833309,001,2022-09-30_11h50.35.106,Motor Sequence Learning,2022.2.2,60.41259381350777,
-50,x,6,0,24,0,,,,,80.56640019989572,81.5659892000258,81.5659892000258,81.5659892000258,81.5659892000258,81.58163010003045,82.56316809984855,82.56316809984855,x,1,0.3709001000970602,833309,001,2022-09-30_11h50.35.106,Motor Sequence Learning,2022.2.2,60.41259381350777,
150,v,6,1,25,1,,,,,82.96295199985616,83.96159969992004,83.96159969992004,83.96159969992004,83.96159969992004,83.97800550004467,84.96353259985335,84.96353259985335,v,1,0.353698099963367,833309,001,2022-09-30_11h50.35.106,Motor Sequence Learning,2022.2.2,60.41259381350777,
50,c,6,2,26,2,,,,,85.3421525999438,86.3407576000318,86.3407576000318,86.3407576000318,86.3407576000318,86.35750679997727,87.3392254000064,87.3392254000064,c,1,0.2328636001329869,833309,001,2022-09-30_11h50.35.106,Motor Sequence Learning,2022.2.2,60.41259381350777,
-150,z,6,3,27,3,,,,,87.58886340004392,88.5878548999317,88.5878548999317,88.5878548999317,88.5878548999317,88.60414660000242,89.58568049990572,89.58568049990572,z,1,0.24980639992281795,833309,001,2022-09-30_11h50.35.106,Motor Sequence Learning,2022.2.2,60.41259381350777,
-50,x,7,0,28,0,,,,,89.85211570002139,90.8513748999685,90.8513748999685,90.8513748999685,90.8513748999685,90.8672201000154,91.84904809994623,91.84904809994623,x,1,0.3463661000132561,833309,001,2022-09-30_11h50.35.106,Motor Sequence Learning,2022.2.2,60.41259381350777,
150,v,7,1,29,1,,,,,92.23007019981742,93.21379920002073,93.21379920002073,93.21379920002073,93.21379920002073,93.23039379995316,94.21189799997956,94.21189799997956,v,1,0.3563260000664741,833309,001,2022-09-30_11h50.35.106,Motor Sequence Learning,2022.2.2,60.41259381350777,
50,c,7,2,30,2,,,,,94.59458819986321,95.59344449988566,95.59344449988566,95.59344449988566,95.59344449988566,95.60981850000098,96.5921714999713,96.5921714999713,c,1,0.3059177999384701,833309,001,2022-09-30_11h50.35.106,Motor Sequence Learning,2022.2.2,60.41259381350777,
-150,z,7,3,31,3,,,,,96.92414020001888,97.92272989987396,97.92272989987396,97.92272989987396,97.92272989987396,97.92272989987396,98.92067689984106,98.92067689984106,z,1,0.2739948998205364,833309,001,2022-09-30_11h50.35.106,Motor Sequence Learning,2022.2.2,60.41259381350777,
-50,x,8,0,32,0,,,,,99.22090119984932,100.22000520001166,100.22000520001166,100.22000520001166,100.22000520001166,100.22000520001166,101.21801660000347,101.21801660000347,x,1,0.3731583000626415,833309,001,2022-09-30_11h50.35.106,Motor Sequence Learning,2022.2.2,60.41259381350777,
150,v,8,1,33,1,,,,,101.61699609993957,102.61624530004337,102.61624530004337,102.61624530004337,102.61624530004337,102.63231799984351,103.61417669989169,103.61417669989169,v,1,0.28566580009646714,833309,001,2022-09-30_11h50.35.106,Motor Sequence Learning,2022.2.2,60.41259381350777,
50,c,8,2,34,2,,,,,103.93038120004348,104.9310339000076,104.9310339000076,104.9310339000076,104.9310339000076,104.9310339000076,105.92850449983962,105.92850449983962,c,1,0.20702700014226139,833309,001,2022-09-30_11h50.35.106,Motor Sequence Learning,2022.2.2,60.41259381350777,
-150,z,8,3,35,3,,,,,106.16030210000463,107.16012579994276,107.16012579994276,107.16012579994276,107.16012579994276,107.17778969998471,108.1572116999887,108.1572116999887,z,1,0.30667770002037287,833309,001,2022-09-30_11h50.35.106,Motor Sequence Learning,2022.2.2,60.41259381350777,
-50,x,9,0,36,0,,,,,108.48968579992652,109.48903119983152,109.48903119983152,109.48903119983152,109.48903119983152,109.50488829985261,110.48688839981332,110.48688839981332,x,1,0.5329256998375058,833309,001,2022-09-30_11h50.35.106,Motor Sequence Learning,2022.2.2,60.41259381350777,
150,v,9,1,37,1,,,,,111.03580620000139,112.03485219995491,112.03485219995491,112.03485219995491,112.03485219995491,112.0513498999644,113.0332985999994,113.0332985999994,v,1,0.3988622999750078,833309,001,2022-09-30_11h50.35.106,Motor Sequence Learning,2022.2.2,60.41259381350777,
50,c,9,2,38,2,,,,,113.4640656998381,114.45054119988345,114.45054119988345,114.45054119988345,114.45054119988345,114.46386589994654,115.44594100001268,115.44594100001268,c,1,0.4182750000618398,833309,001,2022-09-30_11h50.35.106,Motor Sequence Learning,2022.2.2,60.41259381350777,
-150,z,9,3,39,3,,,,,115.89377720002085,116.89325409987941,116.89325409987941,116.89325409987941,116.89325409987941,116.89325409987941,117.89184599998407,117.89184599998407,z,1,0.2433087001554668,833309,001,2022-09-30_11h50.35.106,Motor Sequence Learning,2022.2.2,60.41259381350777,
-50,x,10,0,40,0,,,,,118.15798929985613,119.15815729997121,119.15815729997121,119.15815729997121,119.15815729997121,119.17371889995411,120.1552460999228,120.1552460999228,x,1,0.4567011999897659,833309,001,2022-09-30_11h50.35.106,Motor Sequence Learning,2022.2.2,60.41259381350777,
150,v,10,1,41,1,,,,,120.63792430004105,121.63647969998419,121.63647969998419,121.63647969998419,121.63647969998419,121.6530277999118,122.63463939982466,122.63463939982466,v,1,0.37824780005030334,833309,001,2022-09-30_11h50.35.106,Motor Sequence Learning,2022.2.2,60.41259381350777,
50,c,10,2,42,2,,,,,123.03391380002722,124.0329805999063,124.0329805999063,124.0329805999063,124.0329805999063,124.04954459983855,125.03077630000189,125.03077630000189,c,1,0.26994249993003905,833309,001,2022-09-30_11h50.35.106,Motor Sequence Learning,2022.2.2,60.41259381350777,
-150,z,10,3,43,3,,,,,125.33050529984757,126.32995669986121,126.32995669986121,126.32995669986121,126.32995669986121,126.34594150003977,127.32725249999203,127.32725249999203,z,1,0.32830509985797107,833309,001,2022-09-30_11h50.35.106,Motor Sequence Learning,2022.2.2,60.41259381350777,
-50,x,11,0,44,0,,,,,127.67711799987592,128.67608739994466,128.67608739994466,128.67608739994466,128.67608739994466,128.6923485000152,129.6741131998133,129.6741131998133,x,1,0.3503022000659257,833309,001,2022-09-30_11h50.35.106,Motor Sequence Learning,2022.2.2,60.41259381350777,
150,v,11,1,45,1,,,,,130.0568511998281,131.060828599846,131.060828599846,131.060828599846,131.060828599846,131.0866062999703,132.05617640004493,132.05617640004493,v,1,0.34625099995173514,833309,001,2022-09-30_11h50.35.106,Motor Sequence Learning,2022.2.2,60.41259381350777,
50,c,11,2,46,2,,,,,132.41985289985314,133.4192202000413,133.4192202000413,133.4192202000413,133.4192202000413,133.43489859998226,134.4162979000248,134.4162979000248,c,1,0.3691245000809431,833309,001,2022-09-30_11h50.35.106,Motor Sequence Learning,2022.2.2,60.41259381350777,
-150,z,11,3,47,3,,,,,134.81633089995012,135.81975319981575,135.81975319981575,135.81975319981575,135.81975319981575,135.84625629987568,136.81280299997889,136.81280299997889,z,1,0.056972599821165204,833309,001,2022-09-30_11h50.35.106,Motor Sequence Learning,2022.2.2,60.41259381350777,
-50,x,12,0,48,0,,,,,136.89632749999873,137.89448409993201,137.89448409993201,137.89448409993201,137.89448409993201,137.9113209999632,138.89300189982168,138.89300189982168,x,1,0.25765130016952753,833309,001,2022-09-30_11h50.35.106,Motor Sequence Learning,2022.2.2,60.41259381350777,
150,v,12,1,49,1,,,,,139.1754510998726,140.17439089994878,140.17439089994878,140.17439089994878,140.17439089994878,140.17439089994878,141.17166169988923,141.17166169988923,v,1,0.2774036000482738,833309,001,2022-09-30_11h50.35.106,Motor Sequence Learning,2022.2.2,60.41259381350777,
50,c,12,2,50,2,,,,,141.53351959981956,142.5371391000226,142.5371391000226,142.5371391000226,142.5371391000226,142.5371391000226,143.53569029993378,143.53569029993378,c,1,0.2919469000771642,833309,001,2022-09-30_11h50.35.106,Motor Sequence Learning,2022.2.2,60.41259381350777,
-150,z,12,3,51,3,,,,,143.85182889993303,144.8530319998972,144.8530319998972,144.8530319998972,144.8530319998972,144.87045589997433,145.84896699991077,145.84896699991077,z,1,0.29451179993338883,833309,001,2022-09-30_11h50.35.106,Motor Sequence Learning,2022.2.2,60.41259381350777,
-50,x,13,0,52,0,,,,,146.1647208998911,147.1645051999949,147.1645051999949,147.1645051999949,147.1645051999949,147.18033649981953,148.16190659999847,148.16190659999847,x,1,0.34921170002780855,833309,001,2022-09-30_11h50.35.106,Motor Sequence Learning,2022.2.2,60.41259381350777,
150,v,13,1,53,1,,,,,148.52844809996895,149.52724029985256,149.52724029985256,149.52724029985256,149.52724029985256,149.54334119986743,150.52493399986997,150.52493399986997,v,1,0.3336900998838246,833309,001,2022-09-30_11h50.35.106,Motor Sequence Learning,2022.2.2,60.41259381350777,
50,c,13,2,54,2,,,,,150.89130240003578,151.8909056999255,151.8909056999255,151.8909056999255,151.8909056999255,151.9066129999701,152.88812499982305,152.88812499982305,c,1,0.32475890009664,833309,001,2022-09-30_11h50.35.106,Motor Sequence Learning,2022.2.2,60.41259381350777,
-150,z,13,3,55,3,,,,,153.23801259999163,154.23600229993463,154.23600229993463,154.23600229993463,154.23600229993463,154.25282399985008,155.23417790001258,155.23417790001258,z,1,0.21995380008593202,833309,001,2022-09-30_11h50.35.106,Motor Sequence Learning,2022.2.2,60.41259381350777,
-50,x,14,0,56,0,,,,,155.4837366999127,156.48535469989292,156.48535469989292,156.48535469989292,156.48535469989292,156.4987562999595,157.4808275999967,157.4808275999967,x,1,0.4217022000811994,833309,001,2022-09-30_11h50.35.106,Motor Sequence Learning,2022.2.2,60.41259381350777,
150,v,14,1,57,1,,,,,157.92992789996788,158.9275837999303,158.9275837999303,158.9275837999303,158.9275837999303,158.944268199848,159.9271017999854,159.9271017999854,v,1,0.31338310008868575,833309,001,2022-09-30_11h50.35.106,Motor Sequence Learning,2022.2.2,60.41259381350777,
50,c,14,2,58,2,,,,,160.26012899982743,161.2594258999452,161.2594258999452,161.2594258999452,161.2594258999452,161.27500059991144,162.25675309984945,162.25675309984945,c,1,0.34775369986891747,833309,001,2022-09-30_11h50.35.106,Motor Sequence Learning,2022.2.2,60.41259381350777,
-150,z,14,3,59,3,,,,,162.62299959990196,163.62190549983643,163.62190549983643,163.62190549983643,163.62190549983643,163.6381571998354,164.6198515999131,164.6198515999131,z,1,0.24679600005038083,833309,001,2022-09-30_11h50.35.106,Motor Sequence Learning,2022.2.2,60.41259381350777,
-50,x,15,0,60,0,,,,,164.88608470000327,165.88485789997503,165.88485789997503,165.88485789997503,165.88485789997503,165.90116179990582,166.8828874998726,166.8828874998726,x,1,0.19168390007689595,833309,001,2022-09-30_11h50.35.106,Motor Sequence Learning,2022.2.2,60.41259381350777,
150,v,15,1,61,1,,,,,167.09941249992698,168.0976747998502,168.0976747998502,168.0976747998502,168.0976747998502,168.11469720001332,169.09630679991096,169.09630679991096,v,1,0.3631600998342037,833309,001,2022-09-30_11h50.35.106,Motor Sequence Learning,2022.2.2,60.41259381350777,
50,c,15,2,62,2,,,,,169.47777369990945,170.47586510004476,170.47586510004476,170.47586510004476,170.47586510004476,170.4921448000241,171.47475299984217,171.47475299984217,c,1,0.3169234001543373,833309,001,2022-09-30_11h50.35.106,Motor Sequence Learning,2022.2.2,60.41259381350777,
-150,z,15,3,63,3,,,,,171.80783790000714,172.80754489987157,172.80754489987157,172.80754489987157,172.80754489987157,172.80754489987157,173.80542809981853,173.80542809981853,z,1,0.04402719996869564,833309,001,2022-09-30_11h50.35.106,Motor Sequence Learning,2022.2.2,60.41259381350777,
-50,x,16,0,64,0,,,,,173.8720460999757,174.87065509986132,174.87065509986132,174.87065509986132,174.87065509986132,174.88713619997725,175.86886539985426,175.86886539985426,x,1,0.47376820002682507,833309,001,2022-09-30_11h50.35.106,Motor Sequence Learning,2022.2.2,60.41259381350777,
150,v,16,1,65,1,,,,,176.36833179998212,177.36700269998983,177.36700269998983,177.36700269998983,177.36700269998983,177.38351489999332,178.3653015999589,178.3653015999589,v,1,0.4820177999790758,833309,001,2022-09-30_11h50.35.106,Motor Sequence Learning,2022.2.2,60.41259381350777,
50,c,16,2,66,2,,,,,178.86475720000453,179.8644635998644,179.8644635998644,179.8644635998644,179.8644635998644,179.8813099998515,180.86162259988487,180.86162259988487,c,1,0.29558719997294247,833309,001,2022-09-30_11h50.35.106,Motor Sequence Learning,2022.2.2,60.41259381350777,
-150,z,16,3,67,3,,,,,181.17778140003793,182.17633019993082,182.17633019993082,182.17633019993082,182.17633019993082,182.19255329994485,183.17452879995108,183.17452879995108,z,1,0.3024917000439018,833309,001,2022-09-30_11h50.35.106,Motor Sequence Learning,2022.2.2,60.41259381350777,
-50,x,17,0,68,0,,,,,183.50730189983733,184.50608069985174,184.50608069985174,184.50608069985174,184.50608069985174,184.52256249985658,185.5041198998224,185.5041198998224,x,1,0.31988510000519454,833309,001,2022-09-30_11h50.35.106,Motor Sequence Learning,2022.2.2,60.41259381350777,
150,v,17,1,69,1,,,,,185.85368579998612,186.85289169987664,186.85289169987664,186.85289169987664,186.85289169987664,186.868866099976,187.85177139984444,187.85177139984444,v,1,0.444708300055936,833309,001,2022-09-30_11h50.35.106,Motor Sequence Learning,2022.2.2,60.41259381350777,
50,c,17,2,70,2,,,,,188.31615519989282,189.3149151999969,189.3149151999969,189.3149151999969,189.3149151999969,189.3149151999969,190.31326209986582,190.31326209986582,c,1,0.2702021000441164,833309,001,2022-09-30_11h50.35.106,Motor Sequence Learning,2022.2.2,60.41259381350777,
-150,z,17,3,71,3,,,,,190.61312719993293,191.6116227998864,191.6116227998864,191.6116227998864,191.6116227998864,191.62806260003708,192.6100007998757,192.6100007998757,z,1,0.29452360002323985,833309,001,2022-09-30_11h50.35.106,Motor Sequence Learning,2022.2.2,60.41259381350777,
-50,x,18,0,72,0,,,,,192.9262383999303,193.92515539983287,193.92515539983287,193.92515539983287,193.92515539983287,193.94118359987624,194.92475779983215,194.92475779983215,x,1,0.3423545998521149,833309,001,2022-09-30_11h50.35.106,Motor Sequence Learning,2022.2.2,60.41259381350777,
150,v,18,1,73,1,,,,,195.28911799984053,196.28784230002202,196.28784230002202,196.28784230002202,196.28784230002202,196.30420739995316,197.28577620000578,197.28577620000578,v,1,0.3727855000179261,833309,001,2022-09-30_11h50.35.106,Motor Sequence Learning,2022.2.2,60.41259381350777,
50,c,18,2,74,2,,,,,197.68536049989052,198.6855897998903,198.6855897998903,198.6855897998903,198.6855897998903,198.70055159996264,199.68218709994107,199.68218709994107,c,1,0.3244184001814574,833309,001,2022-09-30_11h50.35.106,Motor Sequence Learning,2022.2.2,60.41259381350777,
-150,z,18,3,75,3,,,,,200.03140520001762,201.03068939992227,201.03068939992227,201.03068939992227,201.03068939992227,201.03068939992227,202.02849199995399,202.02849199995399,z,1,0.47262070002034307,833309,001,2022-09-30_11h50.35.106,Motor Sequence Learning,2022.2.2,60.41259381350777,
-50,x,19,0,76,0,,,,,202.52766759996302,203.52669389988296,203.52669389988296,203.52669389988296,203.52669389988296,203.5428847000003,204.5245333998464,204.5245333998464,x,1,0.37153339991346,833309,001,2022-09-30_11h50.35.106,Motor Sequence Learning,2022.2.2,60.41259381350777,
150,v,19,1,77,1,,,,,204.92397290002555,205.92276749992743,205.92276749992743,205.92276749992743,205.92276749992743,205.92276749992743,206.92112999991514,206.92112999991514,v,1,0.41321410005912185,833309,001,2022-09-30_11h50.35.106,Motor Sequence Learning,2022.2.2,60.41259381350777,
50,c,19,2,78,2,,,,,207.35376510000788,208.35319029982202,208.35319029982202,208.35319029982202,208.35319029982202,208.36922560003586,209.35060360003263,209.35060360003263,c,1,0.3909869999624789,833309,001,2022-09-30_11h50.35.106,Motor Sequence Learning,2022.2.2,60.41259381350777,
-150,z,19,3,79,3,,,,,209.7670660999138,210.7660913998261,210.7660913998261,210.7660913998261,210.7660913998261,210.7824277000036,211.76600369997323,211.76600369997323,z,1,0.39395040017552674,833309,001,2022-09-30_11h50.35.106,Motor Sequence Learning,2022.2.2,60.41259381350777,
-50,x,20,0,80,0,,,,,212.1794108999893,213.17795929987915,213.17795929987915,213.17795929987915,213.17795929987915,213.19466509995982,214.1819682000205,214.1819682000205,x,1,0.3315087000373751,833309,001,2022-09-30_11h50.35.106,Motor Sequence Learning,2022.2.2,60.41259381350777,
150,v,20,1,81,1,,,,,214.5426020999439,215.54154090001248,215.54154090001248,215.54154090001248,215.54154090001248,215.5575853998307,216.5397091000341,216.5397091000341,v,1,0.3379068998619914,833309,001,2022-09-30_11h50.35.106,Motor Sequence Learning,2022.2.2,60.41259381350777,
50,c,20,2,82,2,,,,,216.90537509997375,217.9043149999343,217.9043149999343,217.9043149999343,217.9043149999343,217.92067489982583,218.90319620002992,218.90319620002992,c,1,0.282409300096333,833309,001,2022-09-30_11h50.35.106,Motor Sequence Learning,2022.2.2,60.41259381350777,
-150,z,20,3,83,3,,,,,219.2025888999924,220.20130679989234,220.20130679989234,220.20130679989234,220.20130679989234,220.2173693999648,221.1973363000434,221.1973363000434,z,1,0.3517314998898655,833309,001,2022-09-30_11h50.35.106,Motor Sequence Learning,2022.2.2,60.41259381350777,
-50,x,21,0,84,0,,,,,221.58025809982792,222.56902679987252,222.56902679987252,222.56902679987252,222.56902679987252,222.59529619989917,223.56212719995528,223.56212719995528,x,1,0.35352500015869737,833309,001,2022-09-30_11h50.35.106,Motor Sequence Learning,2022.2.2,60.41259381350777,
150,v,21,1,85,1,,,,,223.94461319991387,224.94629519991577,224.94629519991577,224.94629519991577,224.94629519991577,224.9599268999882,225.9416840998456,225.9416840998456,v,1,0.36859979992732406,833309,001,2022-09-30_11h50.35.106,Motor Sequence Learning,2022.2.2,60.41259381350777,
50,c,21,2,86,2,,,,,226.34093429986387,227.33988959994167,227.33988959994167,227.33988959994167,227.33988959994167,227.35590719990432,228.33818179997616,228.33818179997616,c,1,0.4182645999826491,833309,001,2022-09-30_11h50.35.106,Motor Sequence Learning,2022.2.2,60.41259381350777,
-150,z,21,3,87,3,,,,,228.7872552999761,229.7858839998953,229.7858839998953,229.7858839998953,229.7858839998953,229.80228669987991,230.7843106999062,230.7843106999062,z,1,0.292459299787879,833309,001,2022-09-30_11h50.35.106,Motor Sequence Learning,2022.2.2,60.41259381350777,
-50,x,22,0,88,0,,,,,231.10027589998208,232.1014117000159,232.1014117000159,232.1014117000159,232.1014117000159,232.115385199897,233.09612749982625,233.09612749982625,x,1,0.2635127999819815,833309,001,2022-09-30_11h50.35.106,Motor Sequence Learning,2022.2.2,60.41259381350777,
150,v,22,1,89,1,,,,,233.38032959983684,234.3786092000082,234.3786092000082,234.3786092000082,234.3786092000082,234.39534189994447,235.37694230000488,235.37694230000488,v,1,0.42010660003870726,833309,001,2022-09-30_11h50.35.106,Motor Sequence Learning,2022.2.2,60.41259381350777,
50,c,22,2,90,2,,,,,235.82625549985096,236.8249731999822,236.8249731999822,236.8249731999822,236.8249731999822,236.8249731999822,237.8247970000375,237.8247970000375,c,1,0.27716070017777383,833309,001,2022-09-30_11h50.35.106,Motor Sequence Learning,2022.2.2,60.41259381350777,
-150,z,22,3,91,3,,,,,238.12279699998908,239.12337509985082,239.12337509985082,239.12337509985082,239.12337509985082,239.13762359996326,240.11970479995944,240.11970479995944,z,1,0.31405550008639693,833309,001,2022-09-30_11h50.35.106,Motor Sequence Learning,2022.2.2,60.41259381350777,
-50,x,23,0,92,0,,,,,240.45252229995094,241.45117939985357,241.45117939985357,241.45117939985357,241.45117939985357,241.46776899998076,242.44925770000555,242.44925770000555,x,1,0.5328515998553485,833309,001,2022-09-30_11h50.35.106,Motor Sequence Learning,2022.2.2,60.41259381350777,
150,v,23,1,93,1,,,,,242.99877720000222,243.9975981998723,243.9975981998723,243.9975981998723,243.9975981998723,244.0138677000068,244.99546030000784,244.99546030000784,v,1,0.4880919000133872,833309,001,2022-09-30_11h50.35.106,Motor Sequence Learning,2022.2.2,60.41259381350777,
50,c,23,2,94,2,,,,,245.51150949997827,246.51043479982764,246.51043479982764,246.51043479982764,246.51043479982764,246.52654769993387,247.50824179989286,247.50824179989286,c,1,0.6989174999762326,833309,001,2022-09-30_11h50.35.106,Motor Sequence Learning,2022.2.2,60.41259381350777,
-150,z,23,3,95,3,,,,,248.24039309984073,249.23927509994246,249.23927509994246,249.23927509994246,249.23927509994246,249.25588830001652,250.23828809987754,250.23828809987754,z,1,0.17873489996418357,833309,001,2022-09-30_11h50.35.106,Motor Sequence Learning,2022.2.2,60.41259381350777,
50,c,,,,,0,0,0,2,250.44669729983434,251.43582669994794,251.43582669994794,251.43582669994794,251.43582669994794,251.4522285000421,252.43405719986185,252.43405719986185,c,1,0.8365919999778271,833309,001,2022-09-30_11h50.35.106,Motor Sequence Learning,2022.2.2,60.41259381350777,
150,v,,,,,0,1,1,1,253.29935049987398,254.29826959990896,254.29826959990896,254.29826959990896,254.29826959990896,254.31451729987748,255.2963233999908,255.2963233999908,v,1,0.8862036000937223,833309,001,2022-09-30_11h50.35.106,Motor Sequence Learning,2022.2.2,60.41259381350777,
150,v,,,,,0,2,2,1,256.21129500004463,257.209948200034,257.209948200034,257.209948200034,257.209948200034,257.2267523999326,258.2083936999552,258.2083936999552,v,1,0.47241290006786585,833309,001,2022-09-30_11h50.35.106,Motor Sequence Learning,2022.2.2,60.41259381350777,
150,v,,,,,0,3,3,1,258.70751779992133,259.70643629995175,259.70643629995175,259.70643629995175,259.70643629995175,259.7230722999666,260.7045950999018,260.7045950999018,v,1,0.47657709987834096,833309,001,2022-09-30_11h50.35.106,Motor Sequence Learning,2022.2.2,60.41259381350777,
150,v,,,,,1,0,4,1,261.20376239996403,262.2025706998538,262.2025706998538,262.2025706998538,262.2025706998538,262.21893560001627,263.20105399983004,263.20105399983004,v,1,0.4677478999365121,833309,001,2022-09-30_11h50.35.106,Motor Sequence Learning,2022.2.2,60.41259381350777,
150,v,,,,,1,1,5,1,263.69987090001814,264.698697200045,264.698697200045,264.698697200045,264.698697200045,264.71502909995615,265.6971692999359,265.6971692999359,v,1,0.413163400022313,833309,001,2022-09-30_11h50.35.106,Motor Sequence Learning,2022.2.2,60.41259381350777,
-50,x,,,,,1,2,6,0,266.1292595998384,267.12844399991445,267.12844399991445,267.12844399991445,267.12844399991445,267.14484729990363,268.1270836999174,268.1270836999174,x,1,0.7154887998476624,833309,001,2022-09-30_11h50.35.106,Motor Sequence Learning,2022.2.2,60.41259381350777,
-150,z,,,,,1,3,7,3,268.85877019981854,269.8574469999876,269.8574469999876,269.8574469999876,269.8574469999876,269.8739765000064,270.8554487999063,270.8554487999063,z,1,0.6193494000472128,833309,001,2022-09-30_11h50.35.106,Motor Sequence Learning,2022.2.2,60.41259381350777,
-50,x,,,,,2,0,8,0,271.50461679999717,272.5037787000183,272.5037787000183,272.5037787000183,272.5037787000183,272.5195255000144,273.50134519999847,273.50134519999847,x,1,0.5995986999478191,833309,001,2022-09-30_11h50.35.106,Motor Sequence Learning,2022.2.2,60.41259381350777,
-50,x,,,,,2,1,9,0,274.1338559000287,275.1324843999464,275.1324843999464,275.1324843999464,275.1324843999464,275.1324843999464,276.13132779998705,276.13132779998705,x,1,0.4076296000275761,833309,001,2022-09-30_11h50.35.106,Motor Sequence Learning,2022.2.2,60.41259381350777,
-50,x,,,,,2,2,10,0,276.5801897998899,277.5801754000131,277.5801754000131,277.5801754000131,277.5801754000131,277.5953410998918,278.5770280000288,278.5770280000288,x,1,0.363284399965778,833309,001,2022-09-30_11h50.35.106,Motor Sequence Learning,2022.2.2,60.41259381350777,
150,v,,,,,2,3,11,1,278.95860459981486,279.95828689984046,279.95828689984046,279.95828689984046,279.95828689984046,279.95828689984046,280.9581130000297,280.9581130000297,v,1,0.5485251999925822,833309,001,2022-09-30_11h50.35.106,Motor Sequence Learning,2022.2.2,60.41259381350777,
-150,z,,,,,3,0,12,3,281.52230799989775,282.521018399857,282.521018399857,282.521018399857,282.521018399857,282.53741250000894,283.51953569985926,283.51953569985926,z,1,0.5598424000199884,833309,001,2022-09-30_11h50.35.106,Motor Sequence Learning,2022.2.2,60.41259381350777,
-150,z,,,,,3,1,13,3,284.1025043998379,285.1002406999469,285.1002406999469,285.1002406999469,285.1002406999469,285.116927199997,286.0984661998227,286.0984661998227,z,1,0.48876070021651685,833309,001,2022-09-30_11h50.35.106,Motor Sequence Learning,2022.2.2,60.41259381350777,
50,c,,,,,3,2,14,2,286.61524869990535,287.61339359986596,287.61339359986596,287.61339359986596,287.61339359986596,287.62978319986723,288.6114564000163,288.6114564000163,c,1,0.5104231000877917,833309,001,2022-09-30_11h50.35.106,Motor Sequence Learning,2022.2.2,60.41259381350777,
50,c,,,,,3,3,15,2,289.14381769998,290.14295320003293,290.14295320003293,290.14295320003293,290.14295320003293,290.15985649987124,291.1409159998875,291.1409159998875,c,1,0.35000470001250505,833309,001,2022-09-30_11h50.35.106,Motor Sequence Learning,2022.2.2,60.41259381350777,
-150,z,,,,,4,0,16,3,291.5068206000142,292.50720379990526,292.50720379990526,292.50720379990526,292.50720379990526,292.52216159994714,293.50356399989687,293.50356399989687,z,1,0.4333661000709981,833309,001,2022-09-30_11h50.35.106,Motor Sequence Learning,2022.2.2,60.41259381350777,
150,v,,,,,4,1,17,1,293.9531894000247,294.95148399984464,294.95148399984464,294.95148399984464,294.95148399984464,294.96825179993175,295.9501550998539,295.9501550998539,v,1,0.36112200003117323,833309,001,2022-09-30_11h50.35.106,Motor Sequence Learning,2022.2.2,60.41259381350777,
-50,x,,,,,4,2,18,0,296.3328259999398,297.3466615998186,297.3466615998186,297.3466615998186,297.3466615998186,297.36448309989646,298.3298187998589,298.3298187998589,x,1,0.5026537000667304,833309,001,2022-09-30_11h50.35.106,Motor Sequence Learning,2022.2.2,60.41259381350777,
50,c,,,,,4,3,19,2,298.86216959985904,299.86158749996684,299.86158749996684,299.86158749996684,299.86158749996684,299.8777468998451,300.8593585998751,300.8593585998751,c,1,0.4393819000106305,833309,001,2022-09-30_11h50.35.106,Motor Sequence Learning,2022.2.2,60.41259381350777,
50,c,,,,,5,0,20,2,301.324943699874,302.3248144998215,302.3248144998215,302.3248144998215,302.3248144998215,302.3405931999441,303.32207220001146,303.32207220001146,c,1,0.4313535999972373,833309,001,2022-09-30_11h50.35.106,Motor Sequence Learning,2022.2.2,60.41259381350777,
150,v,,,,,5,1,21,1,303.77129589999095,304.770058499882,304.770058499882,304.770058499882,304.770058499882,304.786518599838,305.768423399888,305.768423399888,v,1,0.4327397998422384,833309,001,2022-09-30_11h50.35.106,Motor Sequence Learning,2022.2.2,60.41259381350777,
50,c,,,,,5,2,22,2,306.2176622999832,307.2159670998808,307.2159670998808,307.2159670998808,307.2159670998808,307.2325924998149,308.2145248998422,308.2145248998422,c,1,0.3201590001117438,833309,001,2022-09-30_11h50.35.106,Motor Sequence Learning,2022.2.2,60.41259381350777,
-150,z,,,,,5,3,23,3,308.56377739994787,309.5627486000303,309.5627486000303,309.5627486000303,309.5627486000303,309.5627486000303,310.56093629985116,310.56093629985116,z,1,0.47685389989055693,833309,001,2022-09-30_11h50.35.106,Motor Sequence Learning,2022.2.2,60.41259381350777,
150,v,,,,,6,0,24,1,311.07695799996145,312.07595069985837,312.07595069985837,312.07595069985837,312.07595069985837,312.0923504999373,313.0734164000023,313.0734164000023,v,1,0.4979554999154061,833309,001,2022-09-30_11h50.35.106,Motor Sequence Learning,2022.2.2,60.41259381350777,
-50,x,,,,,6,1,25,0,313.58919239998795,314.5885321998503,314.5885321998503,314.5885321998503,314.5885321998503,314.6046700000297,315.5864344998263,315.5864344998263,x,1,0.38722890010103583,833309,001,2022-09-30_11h50.35.106,Motor Sequence Learning,2022.2.2,60.41259381350777,
-50,x,,,,,6,2,26,0,316.00229029986076,317.00172169995494,317.00172169995494,317.00172169995494,317.00172169995494,317.01757719996385,318.0035910999868,318.0035910999868,x,1,0.4638441000133753,833309,001,2022-09-30_11h50.35.106,Motor Sequence Learning,2022.2.2,60.41259381350777,
-50,x,,,,,6,3,27,0,318.49866249994375,319.49768339982256,319.49768339982256,319.49768339982256,319.49768339982256,319.51363809988834,320.4954978998285,320.4954978998285,x,1,0.4054080001078546,833309,001,2022-09-30_11h50.35.106,Motor Sequence Learning,2022.2.2,60.41259381350777,
-150,z,,,,,7,0,28,3,320.9283884000033,321.926894800039,321.926894800039,321.926894800039,321.926894800039,321.94353049993515,322.9250520998612,322.9250520998612,z,1,0.4950427000876516,833309,001,2022-09-30_11h50.35.106,Motor Sequence Learning,2022.2.2,60.41259381350777,
-150,z,,,,,7,1,29,3,323.44090179982595,324.4396820999682,324.4396820999682,324.4396820999682,324.4396820999682,324.4560815000441,325.4378471998498,325.4378471998498,z,1,0.31632760004140437,833309,001,2022-09-30_11h50.35.106,Motor Sequence Learning,2022.2.2,60.41259381350777,
50,c,,,,,7,2,30,2,325.770443999907,326.7700030999258,326.7700030999258,326.7700030999258,326.7700030999258,326.78557810001075,327.76778929983266,327.76778929983266,c,1,0.3773998999968171,833309,001,2022-09-30_11h50.35.106,Motor Sequence Learning,2022.2.2,60.41259381350777,
150,v,,,,,7,3,31,1,328.1672632000409,329.16570060001686,329.16570060001686,329.16570060001686,329.16570060001686,329.18192689982243,330.16385869984515,330.16385869984515,v,1,0.44322760007344186,833309,001,2022-09-30_11h50.35.106,Motor Sequence Learning,2022.2.2,60.41259381350777,
-150,z,,,,,8,0,32,3,330.64503020001575,331.6273468998261,331.6273468998261,331.6273468998261,331.6273468998261,331.6608177998569,332.6269990999717,332.6269990999717,z,1,0.35294899996370077,833309,001,2022-09-30_11h50.35.106,Motor Sequence Learning,2022.2.2,60.41259381350777,
50,c,,,,,8,1,33,2,333.00942009990104,334.00828449986875,334.00828449986875,334.00828449986875,334.00828449986875,334.0246071999427,335.00652489997447,335.00652489997447,v,0,0.47107740002684295,833309,001,2022-09-30_11h50.35.106,Motor Sequence Learning,2022.2.2,60.41259381350777,
-150,z,,,,,8,2,34,3,335.50556820002384,336.51938439998776,336.51938439998776,336.51938439998776,336.51938439998776,336.53764039999805,337.502680900041,337.502680900041,z,1,0.39841279992833734,833309,001,2022-09-30_11h50.35.106,Motor Sequence Learning,2022.2.2,60.41259381350777,
-50,x,,,,,8,3,35,0,337.9185034998227,338.9178683999926,338.9178683999926,338.9178683999926,338.9178683999926,338.9337655999698,339.91572849988006,339.91572849988006,x,1,0.5143517998512834,833309,001,2022-09-30_11h50.35.106,Motor Sequence Learning,2022.2.2,60.41259381350777,
-50,x,,,,,9,0,36,0,340.4633137998171,341.4506838999223,341.4506838999223,341.4506838999223,341.4506838999223,341.4781978998799,342.44478269992396,342.44478269992396,x,1,0.4613635002169758,833309,001,2022-09-30_11h50.35.106,Motor Sequence Learning,2022.2.2,60.41259381350777,
150,v,,,,,9,1,37,1,342.9273667000234,343.92638009996153,343.92638009996153,343.92638009996153,343.92638009996153,343.94272609986365,344.92441629990935,344.92441629990935,v,1,0.521308199968189,833309,001,2022-09-30_11h50.35.106,Motor Sequence Learning,2022.2.2,60.41259381350777,
50,c,,,,,9,2,38,2,345.47339559998363,346.47255629999563,346.47255629999563,346.47255629999563,346.47255629999563,346.48887899983674,347.4702896999661,347.4702896999661,c,1,0.35898520005866885,833309,001,2022-09-30_11h50.35.106,Motor Sequence Learning,2022.2.2,60.41259381350777,
-150,z,,,,,9,3,39,3,347.8702271999791,348.86863329983316,348.86863329983316,348.86863329983316,348.86863329983316,348.88469609990716,349.8707899998408,349.8707899998408,z,1,0.4068779000081122,833309,001,2022-09-30_11h50.35.106,Motor Sequence Learning,2022.2.2,60.41259381350777,
50,c,,,,,10,0,40,2,350.2995547000319,351.29847679985687,351.29847679985687,351.29847679985687,351.29847679985687,351.31518979999237,352.2962048999034,352.2962048999034,c,1,0.45319949998520315,833309,001,2022-09-30_11h50.35.106,Motor Sequence Learning,2022.2.2,60.41259381350777,
-150,z,,,,,10,1,41,3,352.7789935998153,353.77772669983096,353.77772669983096,353.77772669983096,353.77772669983096,353.77772669983096,354.77571179997176,354.77571179997176,z,1,0.3867651999462396,833309,001,2022-09-30_11h50.35.106,Motor Sequence Learning,2022.2.2,60.41259381350777,
150,v,,,,,10,2,42,1,355.19073209981434,356.1906328999903,356.1906328999903,356.1906328999903,356.1906328999903,356.1906328999903,357.1890296000056,357.1890296000056,v,1,0.4777577000204474,833309,001,2022-09-30_11h50.35.106,Motor Sequence Learning,2022.2.2,60.41259381350777,
-50,x,,,,,10,3,43,0,357.6878460999578,358.68664139998145,358.68664139998145,358.68664139998145,358.68664139998145,358.68664139998145,359.69125679996796,359.69125679996796,x,1,0.486251899972558,833309,001,2022-09-30_11h50.35.106,Motor Sequence Learning,2022.2.2,60.41259381350777,
-150,z,,,,,11,0,44,3,360.2008396999445,361.19984350004233,361.19984350004233,361.19984350004233,361.19984350004233,361.2157121000346,362.1965210000053,362.1965210000053,z,1,0.45196640002541244,833309,001,2022-09-30_11h50.35.106,Motor Sequence Learning,2022.2.2,60.41259381350777,
150,v,,,,,11,1,45,1,362.6793154999614,363.6789955999702,363.6789955999702,363.6789955999702,363.6789955999702,363.6789955999702,364.6769546000287,364.6769546000287,v,1,0.443136699963361,833309,001,2022-09-30_11h50.35.106,Motor Sequence Learning,2022.2.2,60.41259381350777,
50,c,,,,,11,2,46,2,365.1603461999912,366.1589526999742,366.1589526999742,366.1589526999742,366.1589526999742,366.17481320002116,367.1566015998833,367.1566015998833,c,1,0.38586740009486675,833309,001,2022-09-30_11h50.35.106,Motor Sequence Learning,2022.2.2,60.41259381350777,
-50,x,,,,,11,3,47,0,367.57240749988705,368.57187350001186,368.57187350001186,368.57187350001186,368.57187350001186,368.5876944998745,369.5697126998566,369.5697126998566,x,1,0.5588198001496494,833309,001,2022-09-30_11h50.35.106,Motor Sequence Learning,2022.2.2,60.41259381350777,
50,c,,,,,12,0,48,2,370.15197649993934,371.15097369998693,371.15097369998693,371.15097369998693,371.15097369998693,371.1670760998968,372.14889399986714,372.14889399986714,c,1,0.4487181000877172,833309,001,2022-09-30_11h50.35.106,Motor Sequence Learning,2022.2.2,60.41259381350777,
-50,x,,,,,12,1,49,0,372.6148963999003,373.61350620002486,373.61350620002486,373.61350620002486,373.61350620002486,373.6298505999148,374.61162630002946,374.61162630002946,x,1,0.42146610002964735,833309,001,2022-09-30_11h50.35.106,Motor Sequence Learning,2022.2.2,60.41259381350777,
-150,z,,,,,12,2,50,3,375.0608583998401,376.0595607999712,376.0595607999712,376.0595607999712,376.0595607999712,376.07629659981467,377.0580233000219,377.0580233000219,z,1,0.5843436999712139,833309,001,2022-09-30_11h50.35.106,Motor Sequence Learning,2022.2.2,60.41259381350777,
50,c,,,,,12,3,51,2,377.6740468998905,378.6727219999302,378.6727219999302,378.6727219999302,378.6727219999302,378.6886572998483,379.6808354000095,379.6808354000095,c,1,0.45235979999415576,833309,001,2022-09-30_11h50.35.106,Motor Sequence Learning,2022.2.2,60.41259381350777,
50,c,,,,,13,0,52,2,380.15212369989604,381.1522138998844,381.1522138998844,381.1522138998844,381.1522138998844,381.1522138998844,382.15015419991687,382.15015419991687,c,1,0.4726698000449687,833309,001,2022-09-30_11h50.35.106,Motor Sequence Learning,2022.2.2,60.41259381350777,
-50,x,,,,,13,1,53,0,382.66460849996656,383.64842620003037,383.64842620003037,383.64842620003037,383.64842620003037,383.66453639999963,384.64619469991885,384.64619469991885,x,1,0.37626249995082617,833309,001,2022-09-30_11h50.35.106,Motor Sequence Learning,2022.2.2,60.41259381350777,
150,v,,,,,13,2,54,1,385.0454788999632,386.0444733998738,386.0444733998738,386.0444733998738,386.0444733998738,386.0444733998738,387.0447362998966,387.0447362998966,v,1,0.554164599860087,833309,001,2022-09-30_11h50.35.106,Motor Sequence Learning,2022.2.2,60.41259381350777,
-150,z,,,,,13,3,55,3,387.6247005998157,388.6235471998807,388.6235471998807,388.6235471998807,388.6235471998807,388.6235471998807,389.6221280999016,389.6221280999016,z,1,0.3893935999367386,833309,001,2022-09-30_11h50.35.106,Motor Sequence Learning,2022.2.2,60.41259381350777,
-50,x,,,,,14,0,56,0,390.03802119987085,391.0374735998921,391.0374735998921,391.0374735998921,391.0374735998921,391.05298439995386,392.03514339984395,392.03514339984395,x,1,0.5825405998621136,833309,001,2022-09-30_11h50.35.106,Motor Sequence Learning,2022.2.2,60.41259381350777,
-50,x,,,,,14,1,57,0,392.6342465998605,393.63274949998595,393.63274949998595,393.63274949998595,393.63274949998595,393.6491067998577,394.6307804998942,394.6307804998942,x,1,0.43454509996809065,833309,001,2022-09-30_11h50.35.106,Motor Sequence Learning,2022.2.2,60.41259381350777,
-150,z,,,,,14,2,58,3,395.09699269989505,396.096865599975,396.096865599975,396.096865599975,396.096865599975,396.11210749996826,397.0996291998308,397.0996291998308,z,1,0.5737699000164866,833309,001,2022-09-30_11h50.35.106,Motor Sequence Learning,2022.2.2,60.41259381350777,
-150,z,,,,,14,3,59,3,397.6928113999311,398.69272869988345,398.69272869988345,398.69272869988345,398.69272869988345,398.7079979998525,399.6895430998411,399.6895430998411,z,1,0.4350133999250829,833309,001,2022-09-30_11h50.35.106,Motor Sequence Learning,2022.2.2,60.41259381350777,
-50,x,,,,,15,0,60,0,400.15429099998437,401.1379928998649,401.1379928998649,401.1379928998649,401.1379928998649,401.15480789984576,402.1361686999444,402.1361686999444,x,1,0.45003950013779104,833309,001,2022-09-30_11h50.35.106,Motor Sequence Learning,2022.2.2,60.41259381350777,
50,c,,,,,15,1,61,2,402.6019835998304,403.60129479994066,403.60129479994066,403.60129479994066,403.60129479994066,403.61706550000235,404.5987942998763,404.5987942998763,c,1,0.4401436001062393,833309,001,2022-09-30_11h50.35.106,Motor Sequence Learning,2022.2.2,60.41259381350777,
150,v,,,,,15,2,62,1,405.0797564999666,406.0643779998645,406.0643779998645,406.0643779998645,406.0643779998645,406.0819437999744,407.0617549000308,407.0617549000308,v,1,0.49819849990308285,833309,001,2022-09-30_11h50.35.106,Motor Sequence Learning,2022.2.2,60.41259381350777,
50,c,,,,,15,3,63,2,407.5777942999266,408.5761865999084,408.5761865999084,408.5761865999084,408.5761865999084,408.59253799985163,409.58945089997724,409.58945089997724,c,1,0.5537996999919415,833309,001,2022-09-30_11h50.35.106,Motor Sequence Learning,2022.2.2,60.41259381350777,
150,v,,,,,16,0,64,1,410.1735282000154,411.172149799997,411.172149799997,411.172149799997,411.172149799997,411.1891202998813,412.17124069994316,412.17124069994316,v,1,0.4928259002044797,833309,001,2022-09-30_11h50.35.106,Motor Sequence Learning,2022.2.2,60.41259381350777,
-150,z,,,,,16,1,65,3,412.70172329992056,413.6865554000251,413.6865554000251,413.6865554000251,413.6865554000251,413.7017057999037,414.68311499990523,414.68311499990523,z,1,0.485989399952814,833309,001,2022-09-30_11h50.35.106,Motor Sequence Learning,2022.2.2,60.41259381350777,
-150,z,,,,,16,2,66,3,415.1987685998902,416.1979620999191,416.1979620999191,416.1979620999191,416.1979620999191,416.2146811999846,417.19421250000596,417.19421250000596,z,1,0.42951010004617274,833309,001,2022-09-30_11h50.35.106,Motor Sequence Learning,2022.2.2,60.41259381350777,
-50,x,,,,,16,3,67,0,417.6444605998695,418.64224709989503,418.64224709989503,418.64224709989503,418.64224709989503,418.65847359993495,419.64150070003234,419.64150070003234,x,1,0.3974488000385463,833309,001,2022-09-30_11h50.35.106,Motor Sequence Learning,2022.2.2,60.41259381350777,
-150,z,,,,,17,0,68,3,420.0576235000044,421.0569906998426,421.0569906998426,421.0569906998426,421.0569906998426,421.0569906998426,422.0568168000318,422.0568168000318,z,1,0.46618660003878176,833309,001,2022-09-30_11h50.35.106,Motor Sequence Learning,2022.2.2,60.41259381350777,
-50,x,,,,,17,1,69,0,422.5550436999183,423.5528781998437,423.5528781998437,423.5528781998437,423.5528781998437,423.56958379992284,424.55125329992734,424.55125329992734,x,1,0.49914009985513985,833309,001,2022-09-30_11h50.35.106,Motor Sequence Learning,2022.2.2,60.41259381350777,
50,c,,,,,17,2,70,2,425.08394439984113,426.08287349995226,426.08287349995226,426.08287349995226,426.08287349995226,426.09918310004286,427.0951292999089,427.0951292999089,c,1,0.48741979990154505,833309,001,2022-09-30_11h50.35.106,Motor Sequence Learning,2022.2.2,60.41259381350777,
-50,x,,,,,17,3,71,0,427.5964062998537,428.5949305999093,428.5949305999093,428.5949305999093,428.5949305999093,428.61169349984266,429.5933695998974,429.5933695998974,x,1,0.6218688001390547,833309,001,2022-09-30_11h50.35.106,Motor Sequence Learning,2022.2.2,60.41259381350777,
50,c,,,,,18,0,72,2,430.2423987998627,431.2434970999602,431.2434970999602,431.2434970999602,431.2434970999602,431.2728416000027,432.23927489994094,432.23927489994094,c,1,0.4460831999313086,833309,001,2022-09-30_11h50.35.106,Motor Sequence Learning,2022.2.2,60.41259381350777,
150,v,,,,,18,1,73,1,432.70505779981613,433.7037492999807,433.7037492999807,433.7037492999807,433.7037492999807,433.7037492999807,434.70249329996295,434.70249329996295,v,1,0.5431274999864399,833309,001,2022-09-30_11h50.35.106,Motor Sequence Learning,2022.2.2,60.41259381350777,
150,v,,,,,18,2,74,1,435.26845059986226,436.2669532999862,436.2669532999862,436.2669532999862,436.2669532999862,436.2833914998919,437.26489140000194,437.26489140000194,v,1,0.44979529990814626,833309,001,2022-09-30_11h50.35.106,Motor Sequence Learning,2022.2.2,60.41259381350777,
50,c,,,,,18,3,75,2,437.73089129989967,438.7298464998603,438.7298464998603,438.7298464998603,438.7298464998603,438.7458336998243,439.72807620000094,439.72807620000094,c,1,0.40986720006912947,833309,001,2022-09-30_11h50.35.106,Motor Sequence Learning,2022.2.2,60.41259381350777,
-150,z,,,,,19,0,76,3,440.1603476998862,441.16049369983375,441.16049369983375,441.16049369983375,441.16049369983375,441.1756831998937,442.15787329990417,442.15787329990417,z,1,0.4694817999843508,833309,001,2022-09-30_11h50.35.106,Motor Sequence Learning,2022.2.2,60.41259381350777,
150,v,,,,,19,1,77,1,442.63998119998723,443.6391747999005,443.6391747999005,443.6391747999005,443.6391747999005,443.65517379995435,444.63709579990245,444.63709579990245,v,1,0.3831887999549508,833309,001,2022-09-30_11h50.35.106,Motor Sequence Learning,2022.2.2,60.41259381350777,
-150,z,,,,,19,2,78,3,445.05177399981767,446.05191979999654,446.05191979999654,446.05191979999654,446.05191979999654,446.05191979999654,447.04974749987014,447.04974749987014,z,1,0.4443010000977665,833309,001,2022-09-30_11h50.35.106,Motor Sequence Learning,2022.2.2,60.41259381350777,
-150,z,,,,,19,3,79,3,447.51589159993455,448.51475450000726,448.51475450000726,448.51475450000726,448.51475450000726,448.5310628998559,449.5128803998232,449.5128803998232,z,1,0.4437025000806898,833309,001,2022-09-30_11h50.35.106,Motor Sequence Learning,2022.2.2,60.41259381350777,
50,c,,,,,20,0,80,2,449.97835019999184,450.9773792999331,450.9773792999331,450.9773792999331,450.9773792999331,450.9773792999331,451.9754047000315,451.9754047000315,c,1,0.4229615000076592,833309,001,2022-09-30_11h50.35.106,Motor Sequence Learning,2022.2.2,60.41259381350777,
-50,x,,,,,20,1,81,0,452.4247522999067,453.4238813999109,453.4238813999109,453.4238813999109,453.4238813999109,453.43997539998963,454.421886399854,454.421886399854,c,0,0.4712204998359084,833309,001,2022-09-30_11h50.35.106,Motor Sequence Learning,2022.2.2,60.41259381350777,
50,c,,,,,20,2,82,2,454.9208720999304,455.9194779000245,455.9194779000245,455.9194779000245,455.9194779000245,455.9363772999495,456.9177704998292,456.9177704998292,c,1,0.4025351998861879,833309,001,2022-09-30_11h50.35.106,Motor Sequence Learning,2022.2.2,60.41259381350777,
150,v,,,,,20,3,83,1,457.3505831998773,458.3492690999992,458.3492690999992,458.3492690999992,458.3492690999992,458.36572479992174,459.3474026999902,459.3474026999902,v,1,0.5100354999303818,833309,001,2022-09-30_11h50.35.106,Motor Sequence Learning,2022.2.2,60.41259381350777,
150,v,,,,,21,0,84,1,459.8802634999156,460.8792611998506,460.8792611998506,460.8792611998506,460.8792611998506,460.8954320999328,461.87697939993814,461.87697939993814,v,1,0.4280411000363529,833309,001,2022-09-30_11h50.35.106,Motor Sequence Learning,2022.2.2,60.41259381350777,
50,c,,,,,21,1,85,2,462.32617639983073,463.3252890999429,463.3252890999429,463.3252890999429,463.3252890999429,463.3252890999429,464.3235464999452,464.3235464999452,c,1,0.36813300009816885,833309,001,2022-09-30_11h50.35.106,Motor Sequence Learning,2022.2.2,60.41259381350777,
-50,x,,,,,21,2,86,0,464.7223418999929,465.7210836999584,465.7210836999584,465.7210836999584,465.7210836999584,465.73728939983994,466.718409499852,466.718409499852,x,1,0.3851745999418199,833309,001,2022-09-30_11h50.35.106,Motor Sequence Learning,2022.2.2,60.41259381350777,
-50,x,,,,,21,3,87,0,467.1191090999637,468.11879009986296,468.11879009986296,468.11879009986296,468.11879009986296,468.13612089981325,469.11663619987667,469.11663619987667,x,1,0.3632050999440253,833309,001,2022-09-30_11h50.35.106,Motor Sequence Learning,2022.2.2,60.41259381350777,
50,c,,,,,22,0,88,2,469.4989575999789,470.49700869992375,470.49700869992375,470.49700869992375,470.49700869992375,470.51347119989805,471.49589459993877,471.49589459993877,v,0,0.42880270001478493,833309,001,2022-09-30_11h50.35.106,Motor Sequence Learning,2022.2.2,60.41259381350777,
50,c,,,,,22,1,89,2,471.94364559999667,472.94214679999277,472.94214679999277,472.94214679999277,472.94214679999277,472.9589338998776,473.9415543999057,473.9415543999057,c,1,0.35988959996029735,833309,001,2022-09-30_11h50.35.106,Motor Sequence Learning,2022.2.2,60.41259381350777,
150,v,,,,,22,2,90,1,474.3243519999087,475.32295629987493,475.32295629987493,475.32295629987493,475.32295629987493,475.3395058999304,476.32127869990654,476.32127869990654,v,1,0.5204592000227422,833309,001,2022-09-30_11h50.35.106,Motor Sequence Learning,2022.2.2,60.41259381350777,
-50,x,,,,,22,3,91,0,476.8702759000007,477.8693015000317,477.8693015000317,477.8693015000317,477.8693015000317,477.8693015000317,478.8681723999325,478.8681723999325,x,1,0.36857190006412566,833309,001,2022-09-30_11h50.35.106,Motor Sequence Learning,2022.2.2,60.41259381350777,
150,v,,,,,23,0,92,1,479.2670926998835,480.26709979982115,480.26709979982115,480.26709979982115,480.26709979982115,480.28162319981493,481.26395759987645,481.26395759987645,v,1,0.5414463998749852,833309,001,2022-09-30_11h50.35.106,Motor Sequence Learning,2022.2.2,60.41259381350777,
-150,z,,,,,23,1,93,3,481.8290593000129,482.8279436000157,482.8279436000157,482.8279436000157,482.8279436000157,482.8279436000157,483.8262737998739,483.8262737998739,z,1,0.5229762000963092,833309,001,2022-09-30_11h50.35.106,Motor Sequence Learning,2022.2.2,60.41259381350777,
150,v,,,,,23,2,94,1,484.37542359996587,485.37603679997846,485.37603679997846,485.37603679997846,485.37603679997846,485.3906686999835,486.3724523000419,486.3724523000419,v,1,0.6033978001214564,833309,001,2022-09-30_11h50.35.106,Motor Sequence Learning,2022.2.2,60.41259381350777,
-150,z,,,,,23,3,95,3,487.004239999922,488.0035343999043,488.0035343999043,488.0035343999043,488.0035343999043,488.0035343999043,489.0014843000099,489.0014843000099,z,1,0.4742468998301774,833309,001,2022-09-30_11h50.35.106,Motor Sequence Learning,2022.2.2,60.41259381350777,
